 RMODE NFREQ    PERIOD(S) FREQUENCY(Hz)  C(KM/S)      U(KM/S)      ENERGY       GAMMA(1/KM)  ELLIPTICITY
    0     1   0.20029E-01   49.927      0.15180      0.49447       19894.       0.0000      0.10320    
    0     2   0.20034E-01   49.915      0.15181      0.49446       19889.       0.0000      0.10320    
    0     3   0.20039E-01   49.902      0.15181      0.49446       19884.       0.0000      0.10321    
    0     4   0.20044E-01   49.890      0.15181      0.49411       19873.       0.0000      0.10321    
    0     5   0.20049E-01   49.878      0.15181      0.49445       19873.       0.0000      0.10321    
    0     6   0.20054E-01   49.866      0.15181      0.49444       19868.       0.0000      0.10321    
    0     7   0.20059E-01   49.854      0.15181      0.49444       19863.       0.0000      0.10321    
    0     8   0.20064E-01   49.841      0.15182      0.49443       19857.       0.0000      0.10321    
    0     9   0.20069E-01   49.829      0.15182      0.49443       19852.       0.0000      0.10322    
    0    10   0.20074E-01   49.817      0.15182      0.49442       19847.       0.0000      0.10322    
    0    11   0.20078E-01   49.805      0.15182      0.49441       19842.       0.0000      0.10322    
    0    12   0.20083E-01   49.792      0.15182      0.49441       19836.       0.0000      0.10322    
    0    13   0.20088E-01   49.780      0.15183      0.49440       19831.       0.0000      0.10322    
    0    14   0.20093E-01   49.768      0.15183      0.49440       19826.       0.0000      0.10322    
    0    15   0.20098E-01   49.756      0.15183      0.49438       19820.       0.0000      0.10323    
    0    16   0.20103E-01   49.744      0.15183      0.49439       19815.       0.0000      0.10323    
    0    17   0.20108E-01   49.731      0.15183      0.49438       19810.       0.0000      0.10323    
    0    18   0.20113E-01   49.719      0.15184      0.49437       19805.       0.0000      0.10323    
    0    19   0.20118E-01   49.707      0.15184      0.49437       19800.       0.0000      0.10323    
    0    20   0.20123E-01   49.695      0.15184      0.49436       19794.       0.0000      0.10323    
    0    21   0.20128E-01   49.683      0.15184      0.49436       19789.       0.0000      0.10323    
    0    22   0.20133E-01   49.670      0.15184      0.49434       19784.       0.0000      0.10324    
    0    23   0.20138E-01   49.658      0.15185      0.49434       19778.       0.0000      0.10324    
    0    24   0.20143E-01   49.646      0.15185      0.49434       19773.       0.0000      0.10324    
    0    25   0.20148E-01   49.634      0.15185      0.49434       19768.       0.0000      0.10324    
    0    26   0.20153E-01   49.622      0.15185      0.49433       19763.       0.0000      0.10324    
    0    27   0.20157E-01   49.609      0.15185      0.49432       19758.       0.0000      0.10324    
    0    28   0.20162E-01   49.597      0.15186      0.49432       19752.       0.0000      0.10325    
    0    29   0.20167E-01   49.585      0.15186      0.49431       19747.       0.0000      0.10325    
    0    30   0.20172E-01   49.573      0.15186      0.49431       19742.       0.0000      0.10325    
    0    31   0.20177E-01   49.561      0.15186      0.49430       19737.       0.0000      0.10325    
    0    32   0.20182E-01   49.548      0.15186      0.49430       19731.       0.0000      0.10325    
    0    33   0.20187E-01   49.536      0.15187      0.49429       19726.       0.0000      0.10325    
    0    34   0.20192E-01   49.524      0.15187      0.49425       19720.       0.0000      0.10326    
    0    35   0.20197E-01   49.512      0.15187      0.49428       19716.       0.0000      0.10326    
    0    36   0.20202E-01   49.500      0.15187      0.49427       19710.       0.0000      0.10326    
    0    37   0.20207E-01   49.487      0.15187      0.49427       19705.       0.0000      0.10326    
    0    38   0.20212E-01   49.475      0.15188      0.49426       19700.       0.0000      0.10326    
    0    39   0.20217E-01   49.463      0.15188      0.49426       19695.       0.0000      0.10326    
    0    40   0.20222E-01   49.451      0.15188      0.49425       19689.       0.0000      0.10327    
    0    41   0.20227E-01   49.438      0.15188      0.49424       19684.       0.0000      0.10327    
    0    42   0.20232E-01   49.426      0.15188      0.49424       19679.       0.0000      0.10327    
    0    43   0.20237E-01   49.414      0.15189      0.49423       19674.       0.0000      0.10327    
    0    44   0.20242E-01   49.402      0.15189      0.49423       19668.       0.0000      0.10327    
    0    45   0.20247E-01   49.390      0.15189      0.49422       19663.       0.0000      0.10327    
    0    46   0.20252E-01   49.377      0.15189      0.49422       19658.       0.0000      0.10328    
    0    47   0.20257E-01   49.365      0.15189      0.49421       19653.       0.0000      0.10328    
    0    48   0.20262E-01   49.353      0.15190      0.49420       19647.       0.0000      0.10328    
    0    49   0.20267E-01   49.341      0.15190      0.49420       19642.       0.0000      0.10328    
    0    50   0.20272E-01   49.329      0.15190      0.49419       19637.       0.0000      0.10328    
    0    51   0.20277E-01   49.316      0.15190      0.49419       19632.       0.0000      0.10328    
    0    52   0.20282E-01   49.304      0.15190      0.49418       19626.       0.0000      0.10329    
    0    53   0.20287E-01   49.292      0.15191      0.49417       19621.       0.0000      0.10329    
    0    54   0.20292E-01   49.280      0.15191      0.49417       19616.       0.0000      0.10329    
    0    55   0.20297E-01   49.268      0.15191      0.49416       19611.       0.0000      0.10329    
    0    56   0.20302E-01   49.255      0.15191      0.49416       19605.       0.0000      0.10329    
    0    57   0.20307E-01   49.243      0.15191      0.49415       19600.       0.0000      0.10329    
    0    58   0.20312E-01   49.231      0.15192      0.49415       19595.       0.0000      0.10330    
    0    59   0.20317E-01   49.219      0.15192      0.49384       19585.       0.0000      0.10330    
    0    60   0.20322E-01   49.207      0.15192      0.49414       19584.       0.0000      0.10330    
    0    61   0.20328E-01   49.194      0.15192      0.49413       19579.       0.0000      0.10330    
    0    62   0.20333E-01   49.182      0.15192      0.49412       19574.       0.0000      0.10330    
    0    63   0.20338E-01   49.170      0.15193      0.49412       19569.       0.0000      0.10331    
    0    64   0.20343E-01   49.158      0.15193      0.49411       19563.       0.0000      0.10331    
    0    65   0.20348E-01   49.146      0.15193      0.49410       19558.       0.0000      0.10331    
    0    66   0.20353E-01   49.133      0.15193      0.49409       19553.       0.0000      0.10331    
    0    67   0.20358E-01   49.121      0.15193      0.49409       19548.       0.0000      0.10331    
    0    68   0.20363E-01   49.109      0.15194      0.49409       19542.       0.0000      0.10331    
    0    69   0.20368E-01   49.097      0.15194      0.49408       19537.       0.0000      0.10332    
    0    70   0.20373E-01   49.084      0.15194      0.49406       19532.       0.0000      0.10332    
    0    71   0.20378E-01   49.072      0.15194      0.49407       19526.       0.0000      0.10332    
    0    72   0.20383E-01   49.060      0.15194      0.49405       19521.       0.0000      0.10332    
    0    73   0.20388E-01   49.048      0.15195      0.49406       19516.       0.0000      0.10332    
    0    74   0.20393E-01   49.036      0.15195      0.49405       19511.       0.0000      0.10332    
    0    75   0.20398E-01   49.023      0.15195      0.49405       19505.       0.0000      0.10333    
    0    76   0.20403E-01   49.011      0.15195      0.49404       19500.       0.0000      0.10333    
    0    77   0.20409E-01   48.999      0.15196      0.49404       19495.       0.0000      0.10333    
    0    78   0.20414E-01   48.987      0.15196      0.49403       19490.       0.0000      0.10333    
    0    79   0.20419E-01   48.975      0.15196      0.49398       19484.       0.0000      0.10333    
    0    80   0.20424E-01   48.962      0.15196      0.49402       19479.       0.0000      0.10333    
    0    81   0.20429E-01   48.950      0.15196      0.49387       19472.       0.0000      0.10334    
    0    82   0.20434E-01   48.938      0.15197      0.49401       19469.       0.0000      0.10334    
    0    83   0.20439E-01   48.926      0.15197      0.49400       19463.       0.0000      0.10334    
    0    84   0.20444E-01   48.914      0.15197      0.49399       19458.       0.0000      0.10334    
    0    85   0.20449E-01   48.901      0.15197      0.49399       19453.       0.0000      0.10334    
    0    86   0.20454E-01   48.889      0.15197      0.49398       19448.       0.0000      0.10334    
    0    87   0.20460E-01   48.877      0.15198      0.49398       19442.       0.0000      0.10335    
    0    88   0.20465E-01   48.865      0.15198      0.49397       19437.       0.0000      0.10335    
    0    89   0.20470E-01   48.853      0.15198      0.49396       19432.       0.0000      0.10335    
    0    90   0.20475E-01   48.840      0.15198      0.49396       19427.       0.0000      0.10335    
    0    91   0.20480E-01   48.828      0.15198      0.49395       19421.       0.0000      0.10335    
    0    92   0.20485E-01   48.816      0.15199      0.49395       19416.       0.0000      0.10335    
    0    93   0.20490E-01   48.804      0.15199      0.49394       19411.       0.0000      0.10336    
    0    94   0.20495E-01   48.792      0.15199      0.49393       19406.       0.0000      0.10336    
    0    95   0.20500E-01   48.779      0.15199      0.49393       19400.       0.0000      0.10336    
    0    96   0.20506E-01   48.767      0.15199      0.49392       19395.       0.0000      0.10336    
    0    97   0.20511E-01   48.755      0.15200      0.49392       19390.       0.0000      0.10336    
    0    98   0.20516E-01   48.743      0.15200      0.49391       19385.       0.0000      0.10337    
    0    99   0.20521E-01   48.730      0.15200      0.49390       19379.       0.0000      0.10337    
    0   100   0.20526E-01   48.718      0.15200      0.49390       19374.       0.0000      0.10337    
    0   101   0.20531E-01   48.706      0.15201      0.49388       19369.       0.0000      0.10337    
    0   102   0.20536E-01   48.694      0.15201      0.49389       19363.       0.0000      0.10337    
    0   103   0.20542E-01   48.682      0.15201      0.49388       19358.       0.0000      0.10337    
    0   104   0.20547E-01   48.669      0.15201      0.49387       19353.       0.0000      0.10338    
    0   105   0.20552E-01   48.657      0.15201      0.49387       19348.       0.0000      0.10338    
    0   106   0.20557E-01   48.645      0.15202      0.49386       19342.       0.0000      0.10338    
    0   107   0.20562E-01   48.633      0.15202      0.49386       19337.       0.0000      0.10338    
    0   108   0.20567E-01   48.621      0.15202      0.49385       19332.       0.0000      0.10338    
    0   109   0.20573E-01   48.608      0.15202      0.49384       19327.       0.0000      0.10338    
    0   110   0.20578E-01   48.596      0.15202      0.49383       19321.       0.0000      0.10339    
    0   111   0.20583E-01   48.584      0.15203      0.49383       19316.       0.0000      0.10339    
    0   112   0.20588E-01   48.572      0.15203      0.49371       19309.       0.0000      0.10339    
    0   113   0.20593E-01   48.560      0.15203      0.49382       19306.       0.0000      0.10339    
    0   114   0.20598E-01   48.547      0.15203      0.49380       19300.       0.0000      0.10339    
    0   115   0.20604E-01   48.535      0.15204      0.49381       19295.       0.0000      0.10340    
    0   116   0.20609E-01   48.523      0.15204      0.49380       19290.       0.0000      0.10340    
    0   117   0.20614E-01   48.511      0.15204      0.49379       19284.       0.0000      0.10340    
    0   118   0.20619E-01   48.499      0.15204      0.49379       19279.       0.0000      0.10340    
    0   119   0.20624E-01   48.486      0.15204      0.49378       19274.       0.0000      0.10340    
    0   120   0.20630E-01   48.474      0.15205      0.49377       19269.       0.0000      0.10340    
    0   121   0.20635E-01   48.462      0.15205      0.49377       19264.       0.0000      0.10341    
    0   122   0.20640E-01   48.450      0.15205      0.49375       19258.       0.0000      0.10341    
    0   123   0.20645E-01   48.438      0.15205      0.49376       19253.       0.0000      0.10341    
    0   124   0.20650E-01   48.425      0.15205      0.49375       19248.       0.0000      0.10341    
    0   125   0.20656E-01   48.413      0.15206      0.49367       19241.       0.0000      0.10341    
    0   126   0.20661E-01   48.401      0.15206      0.49374       19237.       0.0000      0.10341    
    0   127   0.20666E-01   48.389      0.15206      0.49372       19232.       0.0000      0.10342    
    0   128   0.20671E-01   48.376      0.15206      0.49373       19227.       0.0000      0.10342    
    0   129   0.20676E-01   48.364      0.15207      0.49372       19221.       0.0000      0.10342    
    0   130   0.20682E-01   48.352      0.15207      0.49361       19214.       0.0000      0.10342    
    0   131   0.20687E-01   48.340      0.15207      0.49371       19211.       0.0000      0.10342    
    0   132   0.20692E-01   48.328      0.15207      0.49370       19206.       0.0000      0.10343    
    0   133   0.20697E-01   48.315      0.15207      0.49370       19200.       0.0000      0.10343    
    0   134   0.20703E-01   48.303      0.15208      0.49368       19195.       0.0000      0.10343    
    0   135   0.20708E-01   48.291      0.15208      0.49368       19190.       0.0000      0.10343    
    0   136   0.20713E-01   48.279      0.15208      0.49367       19184.       0.0000      0.10343    
    0   137   0.20718E-01   48.267      0.15208      0.49367       19179.       0.0000      0.10343    
    0   138   0.20724E-01   48.254      0.15208      0.49367       19174.       0.0000      0.10344    
    0   139   0.20729E-01   48.242      0.15209      0.49366       19169.       0.0000      0.10344    
    0   140   0.20734E-01   48.230      0.15209      0.49364       19163.       0.0000      0.10344    
    0   141   0.20739E-01   48.218      0.15209      0.49365       19158.       0.0000      0.10344    
    0   142   0.20744E-01   48.206      0.15209      0.49239       19133.       0.0000      0.10344    
    0   143   0.20750E-01   48.193      0.15210      0.49363       19148.       0.0000      0.10345    
    0   144   0.20755E-01   48.181      0.15210      0.49363       19142.       0.0000      0.10345    
    0   145   0.20760E-01   48.169      0.15210      0.49362       19137.       0.0000      0.10345    
    0   146   0.20766E-01   48.157      0.15210      0.49361       19132.       0.0000      0.10345    
    0   147   0.20771E-01   48.145      0.15210      0.49361       19127.       0.0000      0.10345    
    0   148   0.20776E-01   48.132      0.15211      0.49360       19121.       0.0000      0.10345    
    0   149   0.20781E-01   48.120      0.15211      0.49360       19116.       0.0000      0.10346    
    0   150   0.20787E-01   48.108      0.15211      0.49359       19111.       0.0000      0.10346    
    0   151   0.20792E-01   48.096      0.15211      0.49358       19105.       0.0000      0.10346    
    0   152   0.20797E-01   48.083      0.15212      0.49358       19100.       0.0000      0.10346    
    0   153   0.20802E-01   48.071      0.15212      0.49357       19095.       0.0000      0.10346    
    0   154   0.20808E-01   48.059      0.15212      0.49356       19090.       0.0000      0.10347    
    0   155   0.20813E-01   48.047      0.15212      0.49354       19084.       0.0000      0.10347    
    0   156   0.20818E-01   48.035      0.15212      0.49355       19079.       0.0000      0.10347    
    0   157   0.20824E-01   48.022      0.15213      0.49355       19074.       0.0000      0.10347    
    0   158   0.20829E-01   48.010      0.15213      0.42933       17895.       0.0000      0.10348    
    0   159   0.20834E-01   47.998      0.15213      0.49353       19063.       0.0000      0.10348    
    0   160   0.20839E-01   47.986      0.15213      0.49353       19058.       0.0000      0.10348    
    0   161   0.20845E-01   47.974      0.15214      0.49352       19053.       0.0000      0.10348    
    0   162   0.20850E-01   47.961      0.15214      0.49349       19047.       0.0000      0.10348    
    0   163   0.20855E-01   47.949      0.15214      0.49349       19042.       0.0000      0.10348    
    0   164   0.20861E-01   47.937      0.15214      0.49350       19037.       0.0000      0.10348    
    0   165   0.20866E-01   47.925      0.15214      0.49350       19032.       0.0000      0.10349    
    0   166   0.20871E-01   47.913      0.15215      0.49349       19027.       0.0000      0.10349    
    0   167   0.20877E-01   47.900      0.15215      0.49347       19021.       0.0000      0.10349    
    0   168   0.20882E-01   47.888      0.15215      0.49348       19016.       0.0000      0.10349    
    0   169   0.20887E-01   47.876      0.15215      0.49347       19011.       0.0000      0.10349    
    0   170   0.20893E-01   47.864      0.15216      0.49346       19005.       0.0000      0.10350    
    0   171   0.20898E-01   47.852      0.15216      0.49346       19000.       0.0000      0.10350    
    0   172   0.20903E-01   47.839      0.15216      0.49345       18995.       0.0000      0.10350    
    0   173   0.20909E-01   47.827      0.15216      0.49344       18990.       0.0000      0.10350    
    0   174   0.20914E-01   47.815      0.15216      0.49344       18984.       0.0000      0.10350    
    0   175   0.20919E-01   47.803      0.15217      0.49330       18977.       0.0000      0.10350    
    0   176   0.20925E-01   47.791      0.15217      0.49343       18974.       0.0000      0.10351    
    0   177   0.20930E-01   47.778      0.15217      0.49336       18968.       0.0000      0.10351    
    0   178   0.20935E-01   47.766      0.15217      0.49341       18963.       0.0000      0.10351    
    0   179   0.20941E-01   47.754      0.15218      0.49341       18958.       0.0000      0.10351    
    0   180   0.20946E-01   47.742      0.15218      0.49300       18946.       0.0000      0.10351    
    0   181   0.20951E-01   47.729      0.15218      0.49339       18947.       0.0000      0.10352    
    0   182   0.20957E-01   47.717      0.15218      0.49339       18942.       0.0000      0.10352    
    0   183   0.20962E-01   47.705      0.15218      0.49338       18937.       0.0000      0.10352    
    0   184   0.20967E-01   47.693      0.15219      0.49337       18932.       0.0000      0.10352    
    0   185   0.20973E-01   47.681      0.15219      0.49337       18926.       0.0000      0.10352    
    0   186   0.20978E-01   47.668      0.15219      0.49336       18921.       0.0000      0.10353    
    0   187   0.20984E-01   47.656      0.15219      0.49335       18916.       0.0000      0.10353    
    0   188   0.20989E-01   47.644      0.15220      0.49334       18910.       0.0000      0.10353    
    0   189   0.20994E-01   47.632      0.15220      0.49334       18905.       0.0000      0.10353    
    0   190   0.21000E-01   47.620      0.15220      0.49331       18900.       0.0000      0.10353    
    0   191   0.21005E-01   47.607      0.15220      0.49333       18895.       0.0000      0.10354    
    0   192   0.21011E-01   47.595      0.15221      0.49332       18889.       0.0000      0.10354    
    0   193   0.21016E-01   47.583      0.15221      0.49332       18884.       0.0000      0.10354    
    0   194   0.21021E-01   47.571      0.15221      0.49327       18878.       0.0000      0.10354    
    0   195   0.21027E-01   47.559      0.15221      0.49330       18874.       0.0000      0.10354    
    0   196   0.21032E-01   47.546      0.15221      0.49330       18868.       0.0000      0.10354    
    0   197   0.21037E-01   47.534      0.15222      0.49322       18862.       0.0000      0.10355    
    0   198   0.21043E-01   47.522      0.15222      0.49328       18858.       0.0000      0.10355    
    0   199   0.21048E-01   47.510      0.15222      0.49328       18853.       0.0000      0.10355    
    0   200   0.21054E-01   47.498      0.15222      0.49323       18847.       0.0000      0.10355    
    0   201   0.21059E-01   47.485      0.15223      0.49326       18842.       0.0000      0.10355    
    0   202   0.21065E-01   47.473      0.15223      0.49326       18837.       0.0000      0.10356    
    0   203   0.21070E-01   47.461      0.15223      0.49325       18831.       0.0000      0.10356    
    0   204   0.21075E-01   47.449      0.15223      0.49324       18826.       0.0000      0.10356    
    0   205   0.21081E-01   47.437      0.15224      0.49324       18821.       0.0000      0.10356    
    0   206   0.21086E-01   47.424      0.15224      0.49323       18816.       0.0000      0.10356    
    0   207   0.21092E-01   47.412      0.15224      0.49322       18810.       0.0000      0.10357    
    0   208   0.21097E-01   47.400      0.15224      0.49322       18805.       0.0000      0.10357    
    0   209   0.21103E-01   47.388      0.15224      0.49320       18800.       0.0000      0.10357    
    0   210   0.21108E-01   47.375      0.15225      0.49320       18795.       0.0000      0.10357    
    0   211   0.21113E-01   47.363      0.15225      0.49320       18789.       0.0000      0.10357    
    0   212   0.21119E-01   47.351      0.15225      0.49319       18784.       0.0000      0.10358    
    0   213   0.21124E-01   47.339      0.15225      0.49318       18779.       0.0000      0.10358    
    0   214   0.21130E-01   47.327      0.15226      0.49318       18773.       0.0000      0.10358    
    0   215   0.21135E-01   47.314      0.15226      0.49317       18768.       0.0000      0.10358    
    0   216   0.21141E-01   47.302      0.15226      0.49316       18763.       0.0000      0.10358    
    0   217   0.21146E-01   47.290      0.15226      0.49316       18758.       0.0000      0.10359    
    0   218   0.21152E-01   47.278      0.15227      0.49314       18752.       0.0000      0.10359    
    0   219   0.21157E-01   47.266      0.15227      0.49314       18747.       0.0000      0.10359    
    0   220   0.21162E-01   47.253      0.15227      0.49313       18742.       0.0000      0.10359    
    0   221   0.21168E-01   47.241      0.15227      0.49239       18725.       0.0000      0.10359    
    0   222   0.21173E-01   47.229      0.15227      0.49312       18731.       0.0000      0.10359    
    0   223   0.21179E-01   47.217      0.15228      0.49312       18726.       0.0000      0.10360    
    0   224   0.21184E-01   47.205      0.15228      0.49310       18721.       0.0000      0.10360    
    0   225   0.21190E-01   47.192      0.15228      0.49310       18715.       0.0000      0.10360    
    0   226   0.21195E-01   47.180      0.15228      0.49308       18710.       0.0000      0.10360    
    0   227   0.21201E-01   47.168      0.15229      0.49309       18705.       0.0000      0.10360    
    0   228   0.21206E-01   47.156      0.15229      0.49308       18700.       0.0000      0.10361    
    0   229   0.21212E-01   47.144      0.15229      0.49308       18694.       0.0000      0.10361    
    0   230   0.21217E-01   47.131      0.15229      0.49300       18688.       0.0000      0.10361    
    0   231   0.21223E-01   47.119      0.15230      0.49306       18684.       0.0000      0.10361    
    0   232   0.21228E-01   47.107      0.15230      0.49306       18678.       0.0000      0.10361    
    0   233   0.21234E-01   47.095      0.15230      0.49303       18673.       0.0000      0.10362    
    0   234   0.21239E-01   47.083      0.15230      0.49304       18668.       0.0000      0.10362    
    0   235   0.21245E-01   47.070      0.15231      0.49297       18662.       0.0000      0.10362    
    0   236   0.21250E-01   47.058      0.15231      0.49302       18657.       0.0000      0.10362    
    0   237   0.21256E-01   47.046      0.15231      0.49302       18652.       0.0000      0.10362    
    0   238   0.21261E-01   47.034      0.15231      0.49301       18647.       0.0000      0.10363    
    0   239   0.21267E-01   47.021      0.15231      0.49298       18641.       0.0000      0.10363    
    0   240   0.21272E-01   47.009      0.15232      0.49300       18636.       0.0000      0.10363    
    0   241   0.21278E-01   46.997      0.15232      0.49299       18631.       0.0000      0.10363    
    0   242   0.21283E-01   46.985      0.15232      0.49299       18626.       0.0000      0.10363    
    0   243   0.21289E-01   46.973      0.15232      0.49298       18620.       0.0000      0.10364    
    0   244   0.21295E-01   46.960      0.15233      0.49298       18615.       0.0000      0.10364    
    0   245   0.21300E-01   46.948      0.15233      0.49297       18610.       0.0000      0.10364    
    0   246   0.21306E-01   46.936      0.15233      0.49296       18604.       0.0000      0.10364    
    0   247   0.21311E-01   46.924      0.15233      0.49295       18599.       0.0000      0.10364    
    0   248   0.21317E-01   46.912      0.15234      0.49295       18594.       0.0000      0.10365    
    0   249   0.21322E-01   46.899      0.15234      0.49275       18586.       0.0000      0.10365    
    0   250   0.21328E-01   46.887      0.15234      0.49290       18583.       0.0000      0.10365    
    0   251   0.21333E-01   46.875      0.15234      0.49280       18576.       0.0000      0.10365    
    0   252   0.21339E-01   46.863      0.15235      0.49292       18573.       0.0000      0.10365    
    0   253   0.21344E-01   46.851      0.15235      0.49291       18567.       0.0000      0.10366    
    0   254   0.21350E-01   46.838      0.15235      0.49221       18551.       0.0000      0.10366    
    0   255   0.21356E-01   46.826      0.15235      0.49290       18557.       0.0000      0.10366    
    0   256   0.21361E-01   46.814      0.15236      0.49289       18552.       0.0000      0.10366    
    0   257   0.21367E-01   46.802      0.15236      0.49289       18546.       0.0000      0.10366    
    0   258   0.21372E-01   46.790      0.15236      0.49279       18540.       0.0000      0.10367    
    0   259   0.21378E-01   46.777      0.15236      0.49287       18536.       0.0000      0.10367    
    0   260   0.21383E-01   46.765      0.15237      0.49284       18530.       0.0000      0.10367    
    0   261   0.21389E-01   46.753      0.15237      0.48889       18463.       0.0000      0.10367    
    0   262   0.21395E-01   46.741      0.15237      0.49281       18519.       0.0000      0.10367    
    0   263   0.21400E-01   46.729      0.15237      0.49285       18515.       0.0000      0.10368    
    0   264   0.21406E-01   46.716      0.15238      0.49277       18508.       0.0000      0.10368    
    0   265   0.21411E-01   46.704      0.15238      0.49283       18504.       0.0000      0.10368    
    0   266   0.21417E-01   46.692      0.15238      0.49279       18498.       0.0000      0.10368    
    0   267   0.21423E-01   46.680      0.15238      0.49282       18494.       0.0000      0.10368    
    0   268   0.21428E-01   46.667      0.15238      0.49281       18488.       0.0000      0.10369    
    0   269   0.21434E-01   46.655      0.15239      0.49271       18482.       0.0000      0.10369    
    0   270   0.21439E-01   46.643      0.15239      0.49279       18478.       0.0000      0.10369    
    0   271   0.21445E-01   46.631      0.15239      0.49279       18472.       0.0000      0.10369    
    0   272   0.21451E-01   46.619      0.15239      0.49276       18467.       0.0000      0.10370    
    0   273   0.21456E-01   46.606      0.15240      0.49278       18462.       0.0000      0.10370    
    0   274   0.21462E-01   46.594      0.15240      0.49269       18455.       0.0000      0.10370    
    0   275   0.21468E-01   46.582      0.15240      0.49253       18448.       0.0000      0.10370    
    0   276   0.21473E-01   46.570      0.15240      0.49276       18446.       0.0000      0.10370    
    0   277   0.21479E-01   46.558      0.15241      0.49274       18441.       0.0000      0.10371    
    0   278   0.21484E-01   46.545      0.15241      0.49274       18435.       0.0000      0.10371    
    0   279   0.21490E-01   46.533      0.15241      0.49273       18430.       0.0000      0.10371    
    0   280   0.21496E-01   46.521      0.15241      0.49273       18425.       0.0000      0.10371    
    0   281   0.21501E-01   46.509      0.15242      0.49270       18419.       0.0000      0.10371    
    0   282   0.21507E-01   46.497      0.15242      0.49271       18414.       0.0000      0.10372    
    0   283   0.21513E-01   46.484      0.15242      0.49271       18409.       0.0000      0.10372    
    0   284   0.21518E-01   46.472      0.15242      0.49270       18404.       0.0000      0.10372    
    0   285   0.21524E-01   46.460      0.15243      0.49246       18395.       0.0000      0.10372    
    0   286   0.21530E-01   46.448      0.15243      0.49268       18393.       0.0000      0.10372    
    0   287   0.21535E-01   46.436      0.15243      0.49267       18388.       0.0000      0.10373    
    0   288   0.21541E-01   46.423      0.15243      0.49245       18379.       0.0000      0.10373    
    0   289   0.21547E-01   46.411      0.15244      0.49266       18377.       0.0000      0.10373    
    0   290   0.21552E-01   46.399      0.15244      0.49265       18372.       0.0000      0.10373    
    0   291   0.21558E-01   46.387      0.15244      0.49265       18367.       0.0000      0.10373    
    0   292   0.21564E-01   46.375      0.15244      0.49263       18361.       0.0000      0.10374    
    0   293   0.21569E-01   46.362      0.15245      0.49263       18356.       0.0000      0.10374    
    0   294   0.21575E-01   46.350      0.15245      0.49263       18351.       0.0000      0.10374    
    0   295   0.21581E-01   46.338      0.15245      0.49262       18345.       0.0000      0.10374    
    0   296   0.21586E-01   46.326      0.15245      0.49258       18340.       0.0000      0.10374    
    0   297   0.21592E-01   46.313      0.15246      0.49260       18335.       0.0000      0.10375    
    0   298   0.21598E-01   46.301      0.15246      0.49257       18329.       0.0000      0.10375    
    0   299   0.21603E-01   46.289      0.15246      0.49259       18324.       0.0000      0.10375    
    0   300   0.21609E-01   46.277      0.15246      0.49259       18319.       0.0000      0.10375    
    0   301   0.21615E-01   46.265      0.15247      0.49258       18314.       0.0000      0.10376    
    0   302   0.21620E-01   46.252      0.15247      0.49254       18308.       0.0000      0.10376    
    0   303   0.21626E-01   46.240      0.15247      0.49256       18303.       0.0000      0.10376    
    0   304   0.21632E-01   46.228      0.15247      0.49246       18296.       0.0000      0.10376    
    0   305   0.21638E-01   46.216      0.15248      0.49255       18293.       0.0000      0.10376    
    0   306   0.21643E-01   46.204      0.15248      0.49253       18287.       0.0000      0.10377    
    0   307   0.21649E-01   46.191      0.15248      0.49253       18282.       0.0000      0.10377    
    0   308   0.21655E-01   46.179      0.15248      0.49236       18274.       0.0000      0.10377    
    0   309   0.21660E-01   46.167      0.15249      0.49252       18271.       0.0000      0.10377    
    0   310   0.21666E-01   46.155      0.15249      0.49251       18266.       0.0000      0.10377    
    0   311   0.21672E-01   46.143      0.15249      0.49240       18259.       0.0000      0.10378    
    0   312   0.21678E-01   46.130      0.15249      0.49249       18255.       0.0000      0.10378    
    0   313   0.21683E-01   46.118      0.15250      0.49248       18250.       0.0000      0.10378    
    0   314   0.21689E-01   46.106      0.15250      0.49248       18245.       0.0000      0.10378    
    0   315   0.21695E-01   46.094      0.15250      0.49247       18240.       0.0000      0.10379    
    0   316   0.21701E-01   46.082      0.15250      0.49247       18234.       0.0000      0.10379    
    0   317   0.21706E-01   46.069      0.15251      0.49246       18229.       0.0000      0.10379    
    0   318   0.21712E-01   46.057      0.15251      0.49246       18224.       0.0000      0.10379    
    0   319   0.21718E-01   46.045      0.15251      0.49245       18218.       0.0000      0.10379    
    0   320   0.21724E-01   46.033      0.15252      0.49243       18213.       0.0000      0.10380    
    0   321   0.21729E-01   46.021      0.15252      0.49243       18208.       0.0000      0.10380    
    0   322   0.21735E-01   46.008      0.15252      0.49241       18202.       0.0000      0.10380    
    0   323   0.21741E-01   45.996      0.15252      0.49242       18197.       0.0000      0.10380    
    0   324   0.21747E-01   45.984      0.15253      0.49241       18192.       0.0000      0.10380    
    0   325   0.21753E-01   45.972      0.15253      0.49226       18184.       0.0000      0.10381    
    0   326   0.21758E-01   45.959      0.15253      0.48576       18079.       0.0000      0.10381    
    0   327   0.21764E-01   45.947      0.15253      0.49238       18176.       0.0000      0.10381    
    0   328   0.21770E-01   45.935      0.15254      0.49216       18167.       0.0000      0.10381    
    0   329   0.21776E-01   45.923      0.15254      0.49237       18165.       0.0000      0.10382    
    0   330   0.21781E-01   45.911      0.15254      0.49235       18160.       0.0000      0.10382    
    0   331   0.21787E-01   45.898      0.15254      0.49236       18155.       0.0000      0.10382    
    0   332   0.21793E-01   45.886      0.15255      0.49235       18150.       0.0000      0.10382    
    0   333   0.21799E-01   45.874      0.15255      0.49232       18144.       0.0000      0.10382    
    0   334   0.21805E-01   45.862      0.15255      0.49232       18139.       0.0000      0.10383    
    0   335   0.21810E-01   45.850      0.15255      0.49233       18134.       0.0000      0.10383    
    0   336   0.21816E-01   45.837      0.15256      0.48690       18045.       0.0000      0.10383    
    0   337   0.21822E-01   45.825      0.15256      0.49232       18123.       0.0000      0.10383    
    0   338   0.21828E-01   45.813      0.15256      0.49220       18116.       0.0000      0.10383    
    0   339   0.21834E-01   45.801      0.15256      0.49230       18112.       0.0000      0.10384    
    0   340   0.21840E-01   45.789      0.15257      0.49228       18107.       0.0000      0.10384    
    0   341   0.21845E-01   45.776      0.15257      0.49229       18102.       0.0000      0.10384    
    0   342   0.21851E-01   45.764      0.15257      0.49228       18097.       0.0000      0.10384    
    0   343   0.21857E-01   45.752      0.15257      0.49208       18088.       0.0000      0.10385    
    0   344   0.21863E-01   45.740      0.15258      0.49082       18064.       0.0000      0.10385    
    0   345   0.21869E-01   45.728      0.15258      0.49225       18081.       0.0000      0.10385    
    0   346   0.21874E-01   45.715      0.15258      0.49225       18075.       0.0000      0.10385    
    0   347   0.21880E-01   45.703      0.15259      0.49212       18068.       0.0000      0.10385    
    0   348   0.21886E-01   45.691      0.15259      0.49223       18065.       0.0000      0.10386    
    0   349   0.21892E-01   45.679      0.15259      0.49222       18059.       0.0000      0.10386    
    0   350   0.21898E-01   45.667      0.15259      0.49220       18054.       0.0000      0.10386    
    0   351   0.21904E-01   45.654      0.15260      0.49221       18049.       0.0000      0.10386    
    0   352   0.21910E-01   45.642      0.15260      0.49077       18022.       0.0000      0.10387    
    0   353   0.21915E-01   45.630      0.15260      0.49209       18037.       0.0000      0.10387    
    0   354   0.21921E-01   45.618      0.15260      0.49219       18033.       0.0000      0.10387    
    0   355   0.21927E-01   45.605      0.15261      0.49218       18028.       0.0000      0.10387    
    0   356   0.21933E-01   45.593      0.15261      0.49213       18022.       0.0000      0.10387    
    0   357   0.21939E-01   45.581      0.15261      0.49209       18016.       0.0000      0.10388    
    0   358   0.21945E-01   45.569      0.15261      0.49216       18012.       0.0000      0.10388    
    0   359   0.21951E-01   45.557      0.15262      0.49215       18006.       0.0000      0.10388    
    0   360   0.21957E-01   45.544      0.15262      0.49214       18001.       0.0000      0.10388    
    0   361   0.21962E-01   45.532      0.15262      0.49213       17996.       0.0000      0.10389    
    0   362   0.21968E-01   45.520      0.15263      0.49213       17991.       0.0000      0.10389    
    0   363   0.21974E-01   45.508      0.15263      0.49204       17984.       0.0000      0.10389    
    0   364   0.21980E-01   45.496      0.15263      0.40638       16422.       0.0000      0.10389    
    0   365   0.21986E-01   45.483      0.15263      0.49209       17975.       0.0000      0.10389    
    0   366   0.21992E-01   45.471      0.15264      0.49030       17942.       0.0000      0.10390    
    0   367   0.21998E-01   45.459      0.15264      0.49205       17964.       0.0000      0.10390    
    0   368   0.22004E-01   45.447      0.15264      0.49208       17959.       0.0000      0.10390    
    0   369   0.22010E-01   45.435      0.15264      0.49208       17954.       0.0000      0.10390    
    0   370   0.22016E-01   45.422      0.15265      0.49202       17948.       0.0000      0.10391    
    0   371   0.22022E-01   45.410      0.15265      0.47645       17701.       0.0000      0.10391    
    0   372   0.22027E-01   45.398      0.15265      0.49202       17937.       0.0000      0.10391    
    0   373   0.22033E-01   45.386      0.15265      0.49204       17932.       0.0000      0.10391    
    0   374   0.22039E-01   45.374      0.15266      0.49204       17927.       0.0000      0.10391    
    0   375   0.22045E-01   45.361      0.15266      0.49196       17921.       0.0000      0.10392    
    0   376   0.22051E-01   45.349      0.15266      0.49202       17916.       0.0000      0.10392    
    0   377   0.22057E-01   45.337      0.15267      0.49201       17911.       0.0000      0.10392    
    0   378   0.22063E-01   45.325      0.15267      0.49200       17906.       0.0000      0.10392    
    0   379   0.22069E-01   45.313      0.15267      0.49196       17900.       0.0000      0.10393    
    0   380   0.22075E-01   45.300      0.15267      0.49198       17895.       0.0000      0.10393    
    0   381   0.22081E-01   45.288      0.15268      0.26614       11655.       0.0000      0.10393    
    0   382   0.22087E-01   45.276      0.15268      0.49101       17870.       0.0000      0.10393    
    0   383   0.22093E-01   45.264      0.15268      0.49195       17879.       0.0000      0.10394    
    0   384   0.22099E-01   45.251      0.15268      0.49111       17861.       0.0000      0.10394    
    0   385   0.22105E-01   45.239      0.15269      0.48285       17730.       0.0000      0.10394    
    0   386   0.22111E-01   45.227      0.15269      0.49193       17863.       0.0000      0.10394    
    0   387   0.22117E-01   45.215      0.15269      0.49173       17855.       0.0000      0.10394    
    0   388   0.22123E-01   45.203      0.15270      0.49173       17850.       0.0000      0.10395    
    0   389   0.22129E-01   45.190      0.15270      0.49192       17847.       0.0000      0.10395    
    0   390   0.22135E-01   45.178      0.15270      0.49187       17841.       0.0000      0.10395    
    0   391   0.22141E-01   45.166      0.15270      0.49188       17836.       0.0000      0.10395    
    0   392   0.22147E-01   45.154      0.15271      0.49190       17831.       0.0000      0.10396    
    0   393   0.22153E-01   45.142      0.15271      0.49188       17826.       0.0000      0.10396    
    0   394   0.22159E-01   45.129      0.15271      0.49187       17821.       0.0000      0.10396    
    0   395   0.22165E-01   45.117      0.15271      0.49187       17816.       0.0000      0.10396    
    0   396   0.22171E-01   45.105      0.15272      0.49186       17810.       0.0000      0.10397    
    0   397   0.22177E-01   45.093      0.15272      0.49185       17805.       0.0000      0.10397    
    0   398   0.22183E-01   45.081      0.15272      0.49185       17800.       0.0000      0.10397    
    0   399   0.22189E-01   45.068      0.15273      0.49181       17794.       0.0000      0.10397    
    0   400   0.22195E-01   45.056      0.15273      0.49181       17789.       0.0000      0.10397    
    0   401   0.22201E-01   45.044      0.15273      0.49182       17784.       0.0000      0.10398    
    0   402   0.22207E-01   45.032      0.15273      0.48932       17741.       0.0000      0.10398    
    0   403   0.22213E-01   45.020      0.15274      0.49181       17773.       0.0000      0.10398    
    0   404   0.22219E-01   45.007      0.15274      0.49120       17759.       0.0000      0.10398    
    0   405   0.22225E-01   44.995      0.15274      0.49177       17762.       0.0000      0.10399    
    0   406   0.22231E-01   44.983      0.15274      0.49023       17734.       0.0000      0.10399    
    0   407   0.22237E-01   44.971      0.15275      0.49178       17752.       0.0000      0.10399    
    0   408   0.22243E-01   44.958      0.15275      0.49114       17737.       0.0000      0.10399    
    0   409   0.22249E-01   44.946      0.15275      0.49176       17741.       0.0000      0.10400    
    0   410   0.22255E-01   44.934      0.15276      0.49170       17735.       0.0000      0.10400    
    0   411   0.22261E-01   44.922      0.15276      0.49166       17729.       0.0000      0.10400    
    0   412   0.22267E-01   44.910      0.15276      0.49174       17725.       0.0000      0.10400    
    0   413   0.22273E-01   44.897      0.15276      0.49172       17720.       0.0000      0.10400    
    0   414   0.22279E-01   44.885      0.15277      0.49167       17714.       0.0000      0.10401    
    0   415   0.22285E-01   44.873      0.15277      0.49169       17709.       0.0000      0.10401    
    0   416   0.22291E-01   44.861      0.15277      0.49171       17704.       0.0000      0.10401    
    0   417   0.22297E-01   44.849      0.15278      0.49162       17698.       0.0000      0.10401    
    0   418   0.22303E-01   44.836      0.15278      0.48779       17635.       0.0000      0.10402    
    0   419   0.22309E-01   44.824      0.15278      0.48617       17606.       0.0000      0.10402    
    0   420   0.22315E-01   44.812      0.15278      0.49160       17682.       0.0000      0.10402    
    0   421   0.22322E-01   44.800      0.15279      0.49167       17677.       0.0000      0.10402    
    0   422   0.22328E-01   44.788      0.15279      0.49162       17672.       0.0000      0.10403    
    0   423   0.22334E-01   44.775      0.15279      0.49145       17664.       0.0000      0.10403    
    0   424   0.22340E-01   44.763      0.15280      0.49094       17651.       0.0000      0.10403    
    0   425   0.22346E-01   44.751      0.15280      0.49162       17656.       0.0000      0.10403    
    0   426   0.22352E-01   44.739      0.15280      0.49131       17646.       0.0000      0.10404    
    0   427   0.22358E-01   44.727      0.15280      0.48398       17531.       0.0000      0.10404    
    0   428   0.22364E-01   44.714      0.15281      0.48980       17614.       0.0000      0.10404    
    0   429   0.22370E-01   44.702      0.15281      0.49157       17634.       0.0000      0.10404    
    0   430   0.22376E-01   44.690      0.15281      0.49159       17630.       0.0000      0.10404    
    0   431   0.22383E-01   44.678      0.15282      0.49156       17624.       0.0000      0.10405    
    0   432   0.22389E-01   44.666      0.15282      0.49114       17613.       0.0000      0.10405    
    0   433   0.22395E-01   44.653      0.15282      0.48621       17534.       0.0000      0.10405    
    0   434   0.22401E-01   44.641      0.15282      0.49131       17605.       0.0000      0.10405    
    0   435   0.22407E-01   44.629      0.15283      0.49153       17603.       0.0000      0.10406    
    0   436   0.22413E-01   44.617      0.15283      0.48801       17545.       0.0000      0.10406    
    0   437   0.22419E-01   44.604      0.15283      0.49154       17592.       0.0000      0.10406    
    0   438   0.22425E-01   44.592      0.15284      0.49153       17587.       0.0000      0.10406    
    0   439   0.22432E-01   44.580      0.15284      0.49012       17561.       0.0000      0.10407    
    0   440   0.22438E-01   44.568      0.15284      0.49149       17576.       0.0000      0.10407    
    0   441   0.22444E-01   44.556      0.15284      0.49151       17571.       0.0000      0.10407    
    0   442   0.22450E-01   44.543      0.15285      0.49148       17566.       0.0000      0.10407    
    0   443   0.22456E-01   44.531      0.15285      0.49100       17553.       0.0000      0.10408    
    0   444   0.22462E-01   44.519      0.15285      0.49148       17555.       0.0000      0.10408    
    0   445   0.22468E-01   44.507      0.15286      0.49147       17550.       0.0000      0.10408    
    0   446   0.22475E-01   44.495      0.15286      0.49147       17545.       0.0000      0.10408    
    0   447   0.22481E-01   44.482      0.15286      0.48971       17514.       0.0000      0.10409    
    0   448   0.22487E-01   44.470      0.15286      0.48910       17499.       0.0000      0.10409    
    0   449   0.22493E-01   44.458      0.15287      0.49144       17529.       0.0000      0.10409    
    0   450   0.22499E-01   44.446      0.15287      0.49143       17523.       0.0000      0.10409    
    0   451   0.22505E-01   44.434      0.15287      0.49142       17518.       0.0000      0.10410    
    0   452   0.22512E-01   44.421      0.15288      0.49141       17513.       0.0000      0.10410    
    0   453   0.22518E-01   44.409      0.15288      0.49141       17507.       0.0000      0.10410    
    0   454   0.22524E-01   44.397      0.15288      0.49084       17494.       0.0000      0.10410    
    0   455   0.22530E-01   44.385      0.15288      0.49136       17496.       0.0000      0.10411    
    0   456   0.22536E-01   44.373      0.15289      0.49138       17491.       0.0000      0.10411    
    0   457   0.22543E-01   44.360      0.15289      0.49123       17484.       0.0000      0.10411    
    0   458   0.22549E-01   44.348      0.15289      0.49136       17481.       0.0000      0.10411    
    0   459   0.22555E-01   44.336      0.15290      0.49126       17474.       0.0000      0.10412    
    0   460   0.22561E-01   44.324      0.15290      0.49125       17469.       0.0000      0.10412    
    0   461   0.22567E-01   44.312      0.15290      0.49131       17464.       0.0000      0.10412    
    0   462   0.22574E-01   44.299      0.15291      0.49132       17459.       0.0000      0.10412    
    0   463   0.22580E-01   44.287      0.15291      0.49132       17454.       0.0000      0.10413    
    0   464   0.22586E-01   44.275      0.15291      0.49110       17446.       0.0000      0.10413    
    0   465   0.22592E-01   44.263      0.15291      0.49129       17443.       0.0000      0.10413    
    0   466   0.22599E-01   44.250      0.15292      0.49130       17438.       0.0000      0.10413    
    0   467   0.22605E-01   44.238      0.15292      0.49117       17431.       0.0000      0.10413    
    0   468   0.22611E-01   44.226      0.15292      0.49127       17427.       0.0000      0.10414    
    0   469   0.22617E-01   44.214      0.15293      0.48492       17329.       0.0000      0.10414    
    0   470   0.22624E-01   44.202      0.15293      0.49124       17417.       0.0000      0.10414    
    0   471   0.22630E-01   44.189      0.15293      0.49126       17412.       0.0000      0.10414    
    0   472   0.22636E-01   44.177      0.15293      0.49118       17405.       0.0000      0.10415    
    0   473   0.22642E-01   44.165      0.15294      0.49123       17401.       0.0000      0.10415    
    0   474   0.22649E-01   44.153      0.15294      0.49122       17395.       0.0000      0.10415    
    0   475   0.22655E-01   44.141      0.15294      0.49121       17390.       0.0000      0.10415    
    0   476   0.22661E-01   44.128      0.15295      0.49120       17385.       0.0000      0.10416    
    0   477   0.22667E-01   44.116      0.15295      0.49120       17380.       0.0000      0.10416    
    0   478   0.22674E-01   44.104      0.15295      0.49118       17374.       0.0000      0.10416    
    0   479   0.22680E-01   44.092      0.15296      0.49117       17369.       0.0000      0.10416    
    0   480   0.22686E-01   44.080      0.15296      0.49114       17363.       0.0000      0.10417    
    0   481   0.22693E-01   44.067      0.15296      0.49108       17357.       0.0000      0.10417    
    0   482   0.22699E-01   44.055      0.15296      0.49033       17341.       0.0000      0.10417    
    0   483   0.22705E-01   44.043      0.15297      0.49115       17348.       0.0000      0.10417    
    0   484   0.22711E-01   44.031      0.15297      0.49113       17342.       0.0000      0.10418    
    0   485   0.22718E-01   44.019      0.15297      0.49081       17332.       0.0000      0.10418    
    0   486   0.22724E-01   44.006      0.15298      0.49110       17331.       0.0000      0.10418    
    0   487   0.22730E-01   43.994      0.15298      0.49112       17326.       0.0000      0.10418    
    0   488   0.22737E-01   43.982      0.15298      0.49111       17321.       0.0000      0.10419    
    0   489   0.22743E-01   43.970      0.15299      0.48797       17270.       0.0000      0.10419    
    0   490   0.22749E-01   43.958      0.15299      0.49020       17297.       0.0000      0.10419    
    0   491   0.22756E-01   43.945      0.15299      0.48886       17273.       0.0000      0.10420    
    0   492   0.22762E-01   43.933      0.15299      0.48854       17263.       0.0000      0.10420    
    0   493   0.22768E-01   43.921      0.15300      0.49106       17294.       0.0000      0.10420    
    0   494   0.22775E-01   43.909      0.15300      0.49102       17289.       0.0000      0.10420    
    0   495   0.22781E-01   43.896      0.15300      0.25308       10618.       0.0000      0.10421    
    0   496   0.22787E-01   43.884      0.15301      0.49101       17278.       0.0000      0.10421    
    0   497   0.22794E-01   43.872      0.15301      0.26002       10979.       0.0000      0.10421    
    0   498   0.22800E-01   43.860      0.15301      0.48943       17245.       0.0000      0.10421    
    0   499   0.22806E-01   43.848      0.15302      0.48412       17162.       0.0000      0.10422    
    0   500   0.22813E-01   43.835      0.15302      0.49101       17257.       0.0000      0.10422    
    0   501   0.22819E-01   43.823      0.15302      0.49098       17252.       0.0000      0.10422    
    0   502   0.22825E-01   43.811      0.15302      0.49067       17242.       0.0000      0.10422    
    0   503   0.22832E-01   43.799      0.15303      0.49097       17241.       0.0000      0.10423    
    0   504   0.22838E-01   43.787      0.15303      0.49097       17236.       0.0000      0.10423    
    0   505   0.22844E-01   43.774      0.15303      0.48992       17215.       0.0000      0.10423    
    0   506   0.22851E-01   43.762      0.15304      0.49012       17213.       0.0000      0.10423    
    0   507   0.22857E-01   43.750      0.15304      0.47811       17030.       0.0000      0.10424    
    0   508   0.22864E-01   43.738      0.15304      0.49093       17214.       0.0000      0.10424    
    0   509   0.22870E-01   43.726      0.15305      0.49092       17209.       0.0000      0.10424    
    0   510   0.22876E-01   43.713      0.15305      0.48845       17168.       0.0000      0.10424    
    0   511   0.22883E-01   43.701      0.15305      0.49056       17193.       0.0000      0.10425    
    0   512   0.22889E-01   43.689      0.15306      0.49007       17181.       0.0000      0.10425    
    0   513   0.22895E-01   43.677      0.15306      0.49089       17188.       0.0000      0.10425    
    0   514   0.22902E-01   43.665      0.15306      0.49084       17182.       0.0000      0.10425    
    0   515   0.22908E-01   43.652      0.15306      0.49087       17177.       0.0000      0.10426    
    0   516   0.22915E-01   43.640      0.15307      0.47224       16894.       0.0000      0.10426    
    0   517   0.22921E-01   43.628      0.15307      0.43495       16262.       0.0000      0.10426    
    0   518   0.22928E-01   43.616      0.15307      0.49084       17161.       0.0000      0.10426    
    0   519   0.22934E-01   43.604      0.15308      0.49076       17155.       0.0000      0.10427    
    0   520   0.22940E-01   43.591      0.15308      0.49082       17150.       0.0000      0.10427    
    0   521   0.22947E-01   43.579      0.15308      0.48951       17126.       0.0000      0.10427    
    0   522   0.22953E-01   43.567      0.15309      0.47888       16965.       0.0000      0.10428    
    0   523   0.22960E-01   43.555      0.15309      0.49080       17134.       0.0000      0.10428    
    0   524   0.22966E-01   43.542      0.15309      0.49051       17125.       0.0000      0.10428    
    0   525   0.22973E-01   43.530      0.15310      0.49074       17123.       0.0000      0.10428    
    0   526   0.22979E-01   43.518      0.15310      0.49073       17118.       0.0000      0.10429    
    0   527   0.22985E-01   43.506      0.15310      0.49049       17109.       0.0000      0.10429    
    0   528   0.22992E-01   43.494      0.15311      0.49075       17108.       0.0000      0.10429    
    0   529   0.22998E-01   43.481      0.15311      0.44877       16447.       0.0000      0.10429    
    0   530   0.23005E-01   43.469      0.15311      0.47354       16843.       0.0000      0.10430    
    0   531   0.23011E-01   43.457      0.15311      0.49072       17092.       0.0000      0.10430    
    0   532   0.23018E-01   43.445      0.15312      0.48992       17075.       0.0000      0.10430    
    0   533   0.23024E-01   43.433      0.15312      0.49065       17080.       0.0000      0.10430    
    0   534   0.23031E-01   43.420      0.15312      0.49065       17075.       0.0000      0.10431    
    0   535   0.23037E-01   43.408      0.15313      0.49028       17064.       0.0000      0.10431    
    0   536   0.23044E-01   43.396      0.15313      0.49067       17065.       0.0000      0.10431    
    0   537   0.23050E-01   43.384      0.15313      0.49067       17060.       0.0000      0.10431    
    0   538   0.23057E-01   43.372      0.15314      0.49065       17054.       0.0000      0.10432    
    0   539   0.23063E-01   43.359      0.15314      0.49034       17045.       0.0000      0.10432    
    0   540   0.23070E-01   43.347      0.15314      0.49059       17043.       0.0000      0.10432    
    0   541   0.23076E-01   43.335      0.15315      0.49056       17037.       0.0000      0.10433    
    0   542   0.23083E-01   43.323      0.15315      0.48044       16885.       0.0000      0.10433    
    0   543   0.23089E-01   43.311      0.15315      0.49048       17026.       0.0000      0.10433    
    0   544   0.23096E-01   43.298      0.15316      0.49043       17020.       0.0000      0.10433    
    0   545   0.23102E-01   43.286      0.15316      0.49016       17011.       0.0000      0.10434    
    0   546   0.23109E-01   43.274      0.15316      0.49058       17012.       0.0000      0.10434    
    0   547   0.23115E-01   43.262      0.15317      0.49058       17006.       0.0000      0.10434    
    0   548   0.23122E-01   43.250      0.15317      0.49056       17001.       0.0000      0.10434    
    0   549   0.23128E-01   43.237      0.15317      0.49028       16992.       0.0000      0.10435    
    0   550   0.23135E-01   43.225      0.15317      0.49045       16989.       0.0000      0.10435    
    0   551   0.23141E-01   43.213      0.15318      0.48994       16976.       0.0000      0.10435    
    0   552   0.23148E-01   43.201      0.15318      0.49050       16979.       0.0000      0.10435    
    0   553   0.23154E-01   43.188      0.15318      0.49050       16974.       0.0000      0.10436    
    0   554   0.23161E-01   43.176      0.15319      0.49032       16966.       0.0000      0.10436    
    0   555   0.23167E-01   43.164      0.15319      0.49047       16963.       0.0000      0.10436    
    0   556   0.23174E-01   43.152      0.15319      0.49043       16957.       0.0000      0.10437    
    0   557   0.23181E-01   43.140      0.15320      0.22720       8900.3       0.0000      0.10437    
    0   558   0.23187E-01   43.127      0.15320      0.48910       16928.       0.0000      0.10437    
    0   559   0.23194E-01   43.115      0.15320      0.48977       16932.       0.0000      0.10437    
    0   560   0.23200E-01   43.103      0.15321      0.49046       16937.       0.0000      0.10438    
    0   561   0.23207E-01   43.091      0.15321      0.48612       16870.       0.0000      0.10438    
    0   562   0.23213E-01   43.079      0.15321      0.49044       16926.       0.0000      0.10438    
    0   563   0.23220E-01   43.066      0.15322      0.49021       16918.       0.0000      0.10438    
    0   564   0.23227E-01   43.054      0.15322      0.49017       16912.       0.0000      0.10439    
    0   565   0.23233E-01   43.042      0.15322      0.49041       16910.       0.0000      0.10439    
    0   566   0.23240E-01   43.030      0.15323      0.40538       15452.       0.0000      0.10439    
    0   567   0.23246E-01   43.018      0.15323      0.49037       16899.       0.0000      0.10440    
    0   568   0.23253E-01   43.005      0.15323      0.49038       16894.       0.0000      0.10440    
    0   569   0.23260E-01   42.993      0.15324      0.49035       16888.       0.0000      0.10440    
    0   570   0.23266E-01   42.981      0.15324      0.49036       16883.       0.0000      0.10440    
    0   571   0.23273E-01   42.969      0.15324      0.48904       16859.       0.0000      0.10441    
    0   572   0.23279E-01   42.957      0.15325      0.16342       3039.5       0.0000      0.10441    
    0   573   0.23286E-01   42.944      0.15325      0.49018       16865.       0.0000      0.10441    
    0   574   0.23293E-01   42.932      0.15325      0.49005       16858.       0.0000      0.10441    
    0   575   0.23299E-01   42.920      0.15326      0.49030       16856.       0.0000      0.10442    
    0   576   0.23306E-01   42.908      0.15326      0.49028       16851.       0.0000      0.10442    
    0   577   0.23312E-01   42.896      0.15326      0.48925       16831.       0.0000      0.10442    
    0   578   0.23319E-01   42.883      0.15327      0.48871       16818.       0.0000      0.10443    
    0   579   0.23326E-01   42.871      0.15327      0.49023       16835.       0.0000      0.10443    
    0   580   0.23332E-01   42.859      0.15327      0.49021       16829.       0.0000      0.10443    
    0   581   0.23339E-01   42.847      0.15328      0.41610       15596.       0.0000      0.10443    
    0   582   0.23346E-01   42.834      0.15328      0.49025       16819.       0.0000      0.10444    
    0   583   0.23352E-01   42.822      0.15328      0.49023       16814.       0.0000      0.10444    
    0   584   0.23359E-01   42.810      0.15329      0.48993       16804.       0.0000      0.10444    
    0   585   0.23366E-01   42.798      0.15329      0.48967       16795.       0.0000      0.10445    
    0   586   0.23372E-01   42.786      0.15329      0.49016       16797.       0.0000      0.10445    
    0   587   0.23379E-01   42.773      0.15330      0.49009       16791.       0.0000      0.10445    
    0   588   0.23386E-01   42.761      0.15330      0.49018       16787.       0.0000      0.10445    
    0   589   0.23392E-01   42.749      0.15330      0.49010       16781.       0.0000      0.10446    
    0   590   0.23399E-01   42.737      0.15331      0.49015       16776.       0.0000      0.10446    
    0   591   0.23406E-01   42.725      0.15331      0.48996       16768.       0.0000      0.10446    
    0   592   0.23412E-01   42.712      0.15331      0.49002       16764.       0.0000      0.10447    
    0   593   0.23419E-01   42.700      0.15332      0.45896       16294.       0.0000      0.10447    
    0   594   0.23426E-01   42.688      0.15332      0.48965       16748.       0.0000      0.10447    
    0   595   0.23432E-01   42.676      0.15332      0.48967       16743.       0.0000      0.10447    
    0   596   0.23439E-01   42.664      0.15333      0.49008       16744.       0.0000      0.10448    
    0   597   0.23446E-01   42.651      0.15333      0.49001       16738.       0.0000      0.10448    
    0   598   0.23453E-01   42.639      0.15333      0.49007       16733.       0.0000      0.10448    
    0   599   0.23459E-01   42.627      0.15334      0.48991       16726.       0.0000      0.10448    
    0   600   0.23466E-01   42.615      0.15334      0.48993       16721.       0.0000      0.10449    
    0   601   0.23473E-01   42.603      0.15334      0.49006       16717.       0.0000      0.10449    
    0   602   0.23480E-01   42.590      0.15335      0.49001       16712.       0.0000      0.10449    
    0   603   0.23486E-01   42.578      0.15335      0.49003       16707.       0.0000      0.10450    
    0   604   0.23493E-01   42.566      0.15335      0.48984       16699.       0.0000      0.10450    
    0   605   0.23500E-01   42.554      0.15336      0.48969       16691.       0.0000      0.10450    
    0   606   0.23506E-01   42.542      0.15336      0.48999       16690.       0.0000      0.10450    
    0   607   0.23513E-01   42.529      0.15336      0.48918       16674.       0.0000      0.10451    
    0   608   0.23520E-01   42.517      0.15337      0.23827       9461.2       0.0000      0.10451    
    0   609   0.23527E-01   42.505      0.15337      0.48691       16631.       0.0000      0.10451    
    0   610   0.23533E-01   42.493      0.15337      0.48988       16668.       0.0000      0.10452    
    0   611   0.23540E-01   42.480      0.15338      0.48967       16660.       0.0000      0.10452    
    0   612   0.23547E-01   42.468      0.15338      0.48981       16656.       0.0000      0.10452    
    0   613   0.23554E-01   42.456      0.15338      0.45047       16055.       0.0000      0.10452    
    0   614   0.23561E-01   42.444      0.15339      0.48989       16647.       0.0000      0.10453    
    0   615   0.23567E-01   42.432      0.15339      0.48990       16642.       0.0000      0.10453    
    0   616   0.23574E-01   42.419      0.15339      0.48863       16619.       0.0000      0.10453    
    0   617   0.23581E-01   42.407      0.15340      0.48989       16632.       0.0000      0.10454    
    0   618   0.23588E-01   42.395      0.15340      0.48902       16614.       0.0000      0.10454    
    0   619   0.23594E-01   42.383      0.15340      0.48962       16617.       0.0000      0.10454    
    0   620   0.23601E-01   42.371      0.15341      0.48986       16615.       0.0000      0.10455    
    0   621   0.23608E-01   42.358      0.15341      0.48978       16609.       0.0000      0.10455    
    0   622   0.23615E-01   42.346      0.15341      0.48978       16604.       0.0000      0.10455    
    0   623   0.23622E-01   42.334      0.15342      0.32671       13205.       0.0000      0.10455    
    0   624   0.23628E-01   42.322      0.15342      0.48969       16592.       0.0000      0.10456    
    0   625   0.23635E-01   42.310      0.15342      0.48945       16584.       0.0000      0.10456    
    0   626   0.23642E-01   42.297      0.15343      0.48958       16580.       0.0000      0.10456    
    0   627   0.23649E-01   42.285      0.15343      0.48976       16578.       0.0000      0.10457    
    0   628   0.23656E-01   42.273      0.15343      0.48937       16567.       0.0000      0.10457    
    0   629   0.23663E-01   42.261      0.15344      0.48770       16538.       0.0000      0.10457    
    0   630   0.23669E-01   42.249      0.15344      0.48735       16528.       0.0000      0.10457    
    0   631   0.23676E-01   42.236      0.15344      0.48948       16553.       0.0000      0.10458    
    0   632   0.23683E-01   42.224      0.15345      0.48974       16551.       0.0000      0.10458    
    0   633   0.23690E-01   42.212      0.15345      0.48966       16545.       0.0000      0.10458    
    0   634   0.23697E-01   42.200      0.15346      0.48962       16539.       0.0000      0.10459    
    0   635   0.23704E-01   42.188      0.15346      0.48967       16534.       0.0000      0.10459    
    0   636   0.23711E-01   42.175      0.15346      0.48597       16478.       0.0000      0.10459    
    0   637   0.23717E-01   42.163      0.15347      0.48960       16523.       0.0000      0.10459    
    0   638   0.23724E-01   42.151      0.15347      0.48932       16514.       0.0000      0.10460    
    0   639   0.23731E-01   42.139      0.15347      0.48905       16505.       0.0000      0.10460    
    0   640   0.23738E-01   42.126      0.15348      0.48930       16503.       0.0000      0.10460    
    0   641   0.23745E-01   42.114      0.15348      0.48955       16502.       0.0000      0.10461    
    0   642   0.23752E-01   42.102      0.15348      0.48267       16400.       0.0000      0.10461    
    0   643   0.23759E-01   42.090      0.15349      0.48957       16491.       0.0000      0.10461    
    0   644   0.23766E-01   42.078      0.15349      0.48951       16485.       0.0000      0.10462    
    0   645   0.23772E-01   42.065      0.15349      0.48951       16480.       0.0000      0.10462    
    0   646   0.23779E-01   42.053      0.15350      0.48957       16476.       0.0000      0.10462    
    0   647   0.23786E-01   42.041      0.15350      0.48777       16446.       0.0000      0.10462    
    0   648   0.23793E-01   42.029      0.15350      0.48946       16464.       0.0000      0.10463    
    0   649   0.23800E-01   42.017      0.15351      0.48833       16443.       0.0000      0.10463    
    0   650   0.23807E-01   42.004      0.15351      0.48954       16454.       0.0000      0.10463    
    0   651   0.23814E-01   41.992      0.15352      0.48948       16448.       0.0000      0.10464    
    0   652   0.23821E-01   41.980      0.15352      0.48944       16443.       0.0000      0.10464    
    0   653   0.23828E-01   41.968      0.15352      0.48944       16437.       0.0000      0.10464    
    0   654   0.23835E-01   41.956      0.15353      0.48947       16433.       0.0000      0.10465    
    0   655   0.23842E-01   41.943      0.15353      0.48942       16427.       0.0000      0.10465    
    0   656   0.23849E-01   41.931      0.15353      0.48869       16411.       0.0000      0.10465    
    0   657   0.23856E-01   41.919      0.15354      0.14474       408.62       0.0000      0.10466    
    0   658   0.23863E-01   41.907      0.15354      0.48937       16410.       0.0000      0.10466    
    0   659   0.23869E-01   41.895      0.15354      0.48921       16403.       0.0000      0.10466    
    0   660   0.23876E-01   41.882      0.15355      0.48900       16395.       0.0000      0.10466    
    0   661   0.23883E-01   41.870      0.15355      0.48881       16387.       0.0000      0.10467    
    0   662   0.23890E-01   41.858      0.15355      0.48877       16381.       0.0000      0.10467    
    0   663   0.23897E-01   41.846      0.15356      0.48889       16378.       0.0000      0.10467    
    0   664   0.23904E-01   41.833      0.15356      0.48906       16375.       0.0000      0.10468    
    0   665   0.23911E-01   41.821      0.15357      0.48919       16371.       0.0000      0.10468    
    0   666   0.23918E-01   41.809      0.15357      0.48928       16367.       0.0000      0.10468    
    0   667   0.23925E-01   41.797      0.15357      0.48914       16360.       0.0000      0.10468    
    0   668   0.23932E-01   41.785      0.15358      0.48588       16310.       0.0000      0.10469    
    0   669   0.23939E-01   41.772      0.15358      0.48925       16351.       0.0000      0.10469    
    0   670   0.23946E-01   41.760      0.15358      0.48860       16337.       0.0000      0.10469    
    0   671   0.23953E-01   41.748      0.15359      0.16060       2649.7       0.0000      0.10470    
    0   672   0.23960E-01   41.736      0.15359      0.48907       16333.       0.0000      0.10470    
    0   673   0.23967E-01   41.724      0.15359      0.48622       16289.       0.0000      0.10470    
    0   674   0.23974E-01   41.711      0.15360      0.48918       16324.       0.0000      0.10471    
    0   675   0.23981E-01   41.699      0.15360      0.48825       16306.       0.0000      0.10471    
    0   676   0.23988E-01   41.687      0.15360      0.48920       16314.       0.0000      0.10471    
    0   677   0.23995E-01   41.675      0.15361      0.48834       16297.       0.0000      0.10472    
    0   678   0.24002E-01   41.663      0.15361      0.48915       16303.       0.0000      0.10472    
    0   679   0.24009E-01   41.650      0.15362      0.48848       16288.       0.0000      0.10472    
    0   680   0.24016E-01   41.638      0.15362      0.48746       16269.       0.0000      0.10472    
    0   681   0.24023E-01   41.626      0.15362      0.47407       16075.       0.0000      0.10473    
    0   682   0.24031E-01   41.614      0.15363      0.48911       16281.       0.0000      0.10473    
    0   683   0.24038E-01   41.602      0.15363      0.48881       16272.       0.0000      0.10473    
    0   684   0.24045E-01   41.589      0.15363      0.48409       16202.       0.0000      0.10474    
    0   685   0.24052E-01   41.577      0.15364      0.48898       16264.       0.0000      0.10474    
    0   686   0.24059E-01   41.565      0.15364      0.48361       16185.       0.0000      0.10474    
    0   687   0.24066E-01   41.553      0.15365      0.48869       16249.       0.0000      0.10475    
    0   688   0.24073E-01   41.541      0.15365      0.48899       16248.       0.0000      0.10475    
    0   689   0.24080E-01   41.528      0.15365      0.48906       16244.       0.0000      0.10475    
    0   690   0.24087E-01   41.516      0.15366      0.48906       16239.       0.0000      0.10476    
    0   691   0.24094E-01   41.504      0.15366      0.47602       16052.       0.0000      0.10476    
    0   692   0.24101E-01   41.492      0.15366      0.48866       16223.       0.0000      0.10476    
    0   693   0.24108E-01   41.479      0.15367      0.48898       16222.       0.0000      0.10477    
    0   694   0.24115E-01   41.467      0.15367      0.45645       15744.       0.0000      0.10477    
    0   695   0.24122E-01   41.455      0.15367      0.47776       16056.       0.0000      0.10477    
    0   696   0.24130E-01   41.443      0.15368      0.37363       14158.       0.0000      0.10477    
    0   697   0.24137E-01   41.431      0.15368      0.48886       16199.       0.0000      0.10478    
    0   698   0.24144E-01   41.418      0.15369      0.48791       16181.       0.0000      0.10478    
    0   699   0.24151E-01   41.406      0.15369      0.48886       16189.       0.0000      0.10478    
    0   700   0.24158E-01   41.394      0.15369      0.46350       15821.       0.0000      0.10479    
    0   701   0.24165E-01   41.382      0.15370      0.48208       16085.       0.0000      0.10479    
    0   702   0.24172E-01   41.370      0.15370      0.44326       15492.       0.0000      0.10479    
    0   703   0.24179E-01   41.357      0.15370      0.48840       16162.       0.0000      0.10480    
    0   704   0.24187E-01   41.345      0.15371      0.48879       16162.       0.0000      0.10480    
    0   705   0.24194E-01   41.333      0.15371      0.48883       16157.       0.0000      0.10480    
    0   706   0.24201E-01   41.321      0.15372      0.48874       16151.       0.0000      0.10481    
    0   707   0.24208E-01   41.309      0.15372      0.48812       16137.       0.0000      0.10481    
    0   708   0.24215E-01   41.296      0.15372      0.48880       16141.       0.0000      0.10481    
    0   709   0.24222E-01   41.284      0.15373      0.48154       16036.       0.0000      0.10482    
    0   710   0.24230E-01   41.272      0.15373      0.48161       16032.       0.0000      0.10482    
    0   711   0.24237E-01   41.260      0.15373      0.48875       16125.       0.0000      0.10482    
    0   712   0.24244E-01   41.248      0.15374      0.48788       16108.       0.0000      0.10483    
    0   713   0.24251E-01   41.235      0.15374      0.48854       16111.       0.0000      0.10483    
    0   714   0.24258E-01   41.223      0.15375      0.48853       16106.       0.0000      0.10483    
    0   715   0.24265E-01   41.211      0.15375      0.48717       16082.       0.0000      0.10484    
    0   716   0.24273E-01   41.199      0.15375      0.48852       16095.       0.0000      0.10484    
    0   717   0.24280E-01   41.187      0.15376      0.48861       16091.       0.0000      0.10484    
    0   718   0.24287E-01   41.174      0.15376      0.48840       16083.       0.0000      0.10484    
    0   719   0.24294E-01   41.162      0.15377      0.48421       16021.       0.0000      0.10485    
    0   720   0.24301E-01   41.150      0.15377      0.48782       16065.       0.0000      0.10485    
    0   721   0.24309E-01   41.138      0.15377      0.48756       16056.       0.0000      0.10485    
    0   722   0.24316E-01   41.125      0.15378      0.46045       15663.       0.0000      0.10486    
    0   723   0.24323E-01   41.113      0.15378      0.48741       16044.       0.0000      0.10486    
    0   724   0.24330E-01   41.101      0.15378      0.48749       16040.       0.0000      0.10486    
    0   725   0.24337E-01   41.089      0.15379      0.47393       15846.       0.0000      0.10487    
    0   726   0.24345E-01   41.077      0.15379      0.48766       16031.       0.0000      0.10487    
    0   727   0.24352E-01   41.064      0.15380      0.48768       16026.       0.0000      0.10487    
    0   728   0.24359E-01   41.052      0.15380      0.48841       16031.       0.0000      0.10488    
    0   729   0.24366E-01   41.040      0.15380      0.48114       15927.       0.0000      0.10488    
    0   730   0.24374E-01   41.028      0.15381      0.48188       15932.       0.0000      0.10488    
    0   731   0.24381E-01   41.016      0.15381      0.48839       16015.       0.0000      0.10489    
    0   732   0.24388E-01   41.003      0.15381      0.47427       15815.       0.0000      0.10489    
    0   733   0.24395E-01   40.991      0.15382      0.40475       14651.       0.0000      0.10489    
    0   734   0.24403E-01   40.979      0.15382      0.48782       15992.       0.0000      0.10490    
    0   735   0.24410E-01   40.967      0.15383      0.48813       15991.       0.0000      0.10490    
    0   736   0.24417E-01   40.955      0.15383      0.48719       15973.       0.0000      0.10490    
    0   737   0.24425E-01   40.942      0.15383      0.48821       15981.       0.0000      0.10491    
    0   738   0.24432E-01   40.930      0.15384      0.48808       15974.       0.0000      0.10491    
    0   739   0.24439E-01   40.918      0.15384      0.48238       15892.       0.0000      0.10491    
    0   740   0.24446E-01   40.906      0.15385      0.48698       15949.       0.0000      0.10492    
    0   741   0.24454E-01   40.894      0.15385      0.48460       15912.       0.0000      0.10492    
    0   742   0.24461E-01   40.881      0.15385      0.48796       15952.       0.0000      0.10492    
    0   743   0.24468E-01   40.869      0.15386      0.48789       15946.       0.0000      0.10493    
    0   744   0.24476E-01   40.857      0.15386      0.48084       15845.       0.0000      0.10493    
    0   745   0.24483E-01   40.845      0.15387      0.48438       15888.       0.0000      0.10493    
    0   746   0.24490E-01   40.833      0.15387      0.48818       15934.       0.0000      0.10494    
    0   747   0.24498E-01   40.820      0.15387      0.42542       14967.       0.0000      0.10494    
    0   748   0.24505E-01   40.808      0.15388      0.48791       15920.       0.0000      0.10494    
    0   749   0.24512E-01   40.796      0.15388      0.48816       15918.       0.0000      0.10495    
    0   750   0.24520E-01   40.784      0.15389      0.48765       15906.       0.0000      0.10495    
    0   751   0.24527E-01   40.771      0.15389      0.48803       15906.       0.0000      0.10495    
    0   752   0.24534E-01   40.759      0.15389      0.48796       15899.       0.0000      0.10496    
    0   753   0.24542E-01   40.747      0.15390      0.48516       15857.       0.0000      0.10496    
    0   754   0.24549E-01   40.735      0.15390      0.48548       15856.       0.0000      0.10496    
    0   755   0.24556E-01   40.723      0.15390      0.48797       15884.       0.0000      0.10497    
    0   756   0.24564E-01   40.710      0.15391      0.48793       15878.       0.0000      0.10497    
    0   757   0.24571E-01   40.698      0.15391      0.48399       15820.       0.0000      0.10497    
    0   758   0.24578E-01   40.686      0.15392      0.47990       15759.       0.0000      0.10498    
    0   759   0.24586E-01   40.674      0.15392      0.48719       15852.       0.0000      0.10498    
    0   760   0.24593E-01   40.662      0.15392      0.48570       15827.       0.0000      0.10498    
    0   761   0.24601E-01   40.649      0.15393      0.48739       15845.       0.0000      0.10499    
    0   762   0.24608E-01   40.637      0.15393      0.48449       15801.       0.0000      0.10499    
    0   763   0.24615E-01   40.625      0.15394      0.48609       15817.       0.0000      0.10499    
    0   764   0.24623E-01   40.613      0.15394      0.17365       4106.7       0.0000      0.10500    
    0   765   0.24630E-01   40.601      0.15394      0.48555       15799.       0.0000      0.10500    
    0   766   0.24638E-01   40.588      0.15395      0.47955       15712.       0.0000      0.10500    
    0   767   0.24645E-01   40.576      0.15395      0.48597       15794.       0.0000      0.10501    
    0   768   0.24652E-01   40.564      0.15396      0.42584       14872.       0.0000      0.10501    
    0   769   0.24660E-01   40.552      0.15396      0.43601       15040.       0.0000      0.10501    
    0   770   0.24667E-01   40.540      0.15396      0.48605       15780.       0.0000      0.10502    
    0   771   0.24675E-01   40.527      0.15397      0.47967       15688.       0.0000      0.10502    
    0   772   0.24682E-01   40.515      0.15397      0.48449       15748.       0.0000      0.10502    
    0   773   0.24690E-01   40.503      0.15398      0.48758       15784.       0.0000      0.10503    
    0   774   0.24697E-01   40.491      0.15398      0.48717       15774.       0.0000      0.10503    
    0   775   0.24704E-01   40.479      0.15398      0.48757       15774.       0.0000      0.10503    
    0   776   0.24712E-01   40.466      0.15399      0.48760       15769.       0.0000      0.10504    
    0   777   0.24719E-01   40.454      0.15399      0.48417       15718.       0.0000      0.10504    
    0   778   0.24727E-01   40.442      0.15400      0.46910       15504.       0.0000      0.10504    
    0   779   0.24734E-01   40.430      0.15400      0.48096       15664.       0.0000      0.10505    
    0   780   0.24742E-01   40.417      0.15401      0.48704       15740.       0.0000      0.10505    
    0   781   0.24749E-01   40.405      0.15401      0.48520       15711.       0.0000      0.10506    
    0   782   0.24757E-01   40.393      0.15401      0.48559       15711.       0.0000      0.10506    
    0   783   0.24764E-01   40.381      0.15402      0.48725       15728.       0.0000      0.10506    
    0   784   0.24772E-01   40.369      0.15402      0.48474       15689.       0.0000      0.10507    
    0   785   0.24779E-01   40.356      0.15403      0.48195       15646.       0.0000      0.10507    
    0   786   0.24787E-01   40.344      0.15403      0.48525       15685.       0.0000      0.10507    
    0   787   0.24794E-01   40.332      0.15403      0.48731       15707.       0.0000      0.10508    
    0   788   0.24802E-01   40.320      0.15404      0.47993       15603.       0.0000      0.10508    
    0   789   0.24809E-01   40.308      0.15404      0.48738       15698.       0.0000      0.10508    
    0   790   0.24817E-01   40.295      0.15405      0.48722       15690.       0.0000      0.10509    
    0   791   0.24824E-01   40.283      0.15405      0.34491       13035.       0.0000      0.10509    
    0   792   0.24832E-01   40.271      0.15405      0.48442       15643.       0.0000      0.10509    
    0   793   0.24839E-01   40.259      0.15406      0.38399       13949.       0.0000      0.10510    
    0   794   0.24847E-01   40.247      0.15406      0.48715       15669.       0.0000      0.10510    
    0   795   0.24854E-01   40.234      0.15407      0.48721       15664.       0.0000      0.10510    
    0   796   0.24862E-01   40.222      0.15407      0.46852       15403.       0.0000      0.10511    
    0   797   0.24869E-01   40.210      0.15407      0.48603       15638.       0.0000      0.10511    
    0   798   0.24877E-01   40.198      0.15408      0.47563       15492.       0.0000      0.10511    
    0   799   0.24885E-01   40.186      0.15408      0.32048       12311.       0.0000      0.10512    
    0   800   0.24892E-01   40.173      0.15409      0.48629       15626.       0.0000      0.10512    
    0   801   0.24900E-01   40.161      0.15409      0.48641       15622.       0.0000      0.10513    
    0   802   0.24907E-01   40.149      0.15410      0.48699       15624.       0.0000      0.10513    
    0   803   0.24915E-01   40.137      0.15410      0.47720       15488.       0.0000      0.10513    
    0   804   0.24922E-01   40.125      0.15410      0.48651       15608.       0.0000      0.10514    
    0   805   0.24930E-01   40.112      0.15411      0.48291       15555.       0.0000      0.10514    
    0   806   0.24938E-01   40.100      0.15411      0.46499       15301.       0.0000      0.10514    
    0   807   0.24945E-01   40.088      0.15412      0.39934       14196.       0.0000      0.10515    
    0   808   0.24953E-01   40.076      0.15412      0.40987       14391.       0.0000      0.10515    
    0   809   0.24960E-01   40.063      0.15412      0.46749       15321.       0.0000      0.10515    
    0   810   0.24968E-01   40.051      0.15413      0.48249       15523.       0.0000      0.10516    
    0   811   0.24976E-01   40.039      0.15413      0.48600       15564.       0.0000      0.10516    
    0   812   0.24983E-01   40.027      0.15414      0.42338       14614.       0.0000      0.10516    
    0   813   0.24991E-01   40.015      0.15414      0.35082       13093.       0.0000      0.10517    
    0   814   0.24998E-01   40.002      0.15415      0.48548       15542.       0.0000      0.10517    
    0   815   0.25006E-01   39.990      0.15415      0.47826       15440.       0.0000      0.10518    
    0   816   0.25014E-01   39.978      0.15415      0.31793       12166.       0.0000      0.10518    
    0   817   0.25021E-01   39.966      0.15416      0.48626       15536.       0.0000      0.10518    
    0   818   0.25029E-01   39.954      0.15416      0.48526       15518.       0.0000      0.10519    
    0   819   0.25037E-01   39.941      0.15417      0.48365       15491.       0.0000      0.10519    
    0   820   0.25044E-01   39.929      0.15417      0.48098       15451.       0.0000      0.10519    
    0   821   0.25052E-01   39.917      0.15418      0.47636       15383.       0.0000      0.10520    
    0   822   0.25060E-01   39.905      0.15418      0.46718       15250.       0.0000      0.10520    
    0   823   0.25067E-01   39.893      0.15418      0.44327       14888.       0.0000      0.10520    
    0   824   0.25075E-01   39.880      0.15419      0.33903       12740.       0.0000      0.10521    
    0   825   0.25083E-01   39.868      0.15419      0.45410       15044.       0.0000      0.10521    
    0   826   0.25090E-01   39.856      0.15420      0.47293       15310.       0.0000      0.10521    
    0   827   0.25098E-01   39.844      0.15420      0.47862       15382.       0.0000      0.10522    
    0   828   0.25106E-01   39.832      0.15421      0.48074       15406.       0.0000      0.10522    
    0   829   0.25113E-01   39.819      0.15421      0.48130       15408.       0.0000      0.10523    
    0   830   0.25121E-01   39.807      0.15421      0.48054       15392.       0.0000      0.10523    
    0   831   0.25129E-01   39.795      0.15422      0.47718       15342.       0.0000      0.10523    
    0   832   0.25137E-01   39.783      0.15422      0.46130       15115.       0.0000      0.10524    
    0   833   0.25144E-01   39.771      0.15423      0.48628       15453.       0.0000      0.10524    
    0   834   0.25152E-01   39.758      0.15423      0.48499       15430.       0.0000      0.10524    
    0   835   0.25160E-01   39.746      0.15424      0.47695       15318.       0.0000      0.10525    
    0   836   0.25167E-01   39.734      0.15424      0.48579       15430.       0.0000      0.10525    
    0   837   0.25175E-01   39.722      0.15424      0.39932       14055.       0.0000      0.10526    
    0   838   0.25183E-01   39.709      0.15425      0.48530       15414.       0.0000      0.10526    
    0   839   0.25191E-01   39.697      0.15425      0.47842       15317.       0.0000      0.10526    
    0   840   0.25198E-01   39.685      0.15426      0.48556       15406.       0.0000      0.10527    
    0   841   0.25206E-01   39.673      0.15426      0.46001       15050.       0.0000      0.10527    
    0   842   0.25214E-01   39.661      0.15427      0.47962       15318.       0.0000      0.10527    
    0   843   0.25222E-01   39.648      0.15427      0.48156       15338.       0.0000      0.10528    
    0   844   0.25229E-01   39.636      0.15427      0.47918       15301.       0.0000      0.10528    
    0   845   0.25237E-01   39.624      0.15428      0.45086       14894.       0.0000      0.10528    
    0   846   0.25245E-01   39.612      0.15428      0.48480       15365.       0.0000      0.10529    
    0   847   0.25253E-01   39.600      0.15429      0.45224       14905.       0.0000      0.10529    
    0   848   0.25261E-01   39.587      0.15429      0.47853       15272.       0.0000      0.10530    
    0   849   0.25268E-01   39.575      0.15430      0.48388       15337.       0.0000      0.10530    
    0   850   0.25276E-01   39.563      0.15430      0.31695       12003.       0.0000      0.10530    
    0   851   0.25284E-01   39.551      0.15431      0.45884       14982.       0.0000      0.10531    
    0   852   0.25292E-01   39.539      0.15431      0.44791       14814.       0.0000      0.10531    
    0   853   0.25300E-01   39.526      0.15431      0.48531       15335.       0.0000      0.10531    
    0   854   0.25307E-01   39.514      0.15432      0.47879       15244.       0.0000      0.10532    
    0   855   0.25315E-01   39.502      0.15432      0.48394       15307.       0.0000      0.10532    
    0   856   0.25323E-01   39.490      0.15433      0.48422       15305.       0.0000      0.10533    
    0   857   0.25331E-01   39.478      0.15433      0.48143       15263.       0.0000      0.10533    
    0   858   0.25339E-01   39.465      0.15434      0.36666       13275.       0.0000      0.10533    
    0   859   0.25347E-01   39.453      0.15434      0.47202       15127.       0.0000      0.10534    
    0   860   0.25354E-01   39.441      0.15435      0.46964       15089.       0.0000      0.10534    
    0   861   0.25362E-01   39.429      0.15435      0.48180       15247.       0.0000      0.10534    
    0   862   0.25370E-01   39.417      0.15435      0.48304       15258.       0.0000      0.10535    
    0   863   0.25378E-01   39.404      0.15436      0.47897       15199.       0.0000      0.10535    
    0   864   0.25386E-01   39.392      0.15436      0.48507       15274.       0.0000      0.10536    
    0   865   0.25394E-01   39.380      0.15437      0.43564       14558.       0.0000      0.10536    
    0   866   0.25402E-01   39.368      0.15437      0.26503       10061.       0.0000      0.10536    
    0   867   0.25409E-01   39.355      0.15438      0.48082       15203.       0.0000      0.10537    
    0   868   0.25417E-01   39.343      0.15438      0.48354       15233.       0.0000      0.10537    
    0   869   0.25425E-01   39.331      0.15439      0.48164       15203.       0.0000      0.10538    
    0   870   0.25433E-01   39.319      0.15439      0.40630       14030.       0.0000      0.10538    
    0   871   0.25441E-01   39.307      0.15439      0.45910       14884.       0.0000      0.10538    
    0   872   0.25449E-01   39.294      0.15440      0.21678       7495.5       0.0000      0.10539    
    0   873   0.25457E-01   39.282      0.15440      0.46415       14945.       0.0000      0.10539    
    0   874   0.25465E-01   39.270      0.15441      0.41632       14190.       0.0000      0.10539    
    0   875   0.25473E-01   39.258      0.15441      0.48063       15159.       0.0000      0.10540    
    0   876   0.25481E-01   39.246      0.15442      0.48166       15167.       0.0000      0.10540    
    0   877   0.25488E-01   39.233      0.15442      0.46658       14958.       0.0000      0.10541    
    0   878   0.25496E-01   39.221      0.15443      0.47948       15128.       0.0000      0.10541    
    0   879   0.25504E-01   39.209      0.15443      0.47146       15015.       0.0000      0.10541    
    0   880   0.25512E-01   39.197      0.15444      0.48266       15159.       0.0000      0.10542    
    0   881   0.25520E-01   39.185      0.15444      0.48186       15143.       0.0000      0.10542    
    0   882   0.25528E-01   39.172      0.15444      0.43949       14534.       0.0000      0.10543    
    0   883   0.25536E-01   39.160      0.15445      0.44771       14655.       0.0000      0.10543    
    0   884   0.25544E-01   39.148      0.15445      0.48254       15136.       0.0000      0.10543    
    0   885   0.25552E-01   39.136      0.15446      0.29492       11154.       0.0000      0.10544    
    0   886   0.25560E-01   39.124      0.15446      0.48082       15103.       0.0000      0.10544    
    0   887   0.25568E-01   39.111      0.15447      0.48254       15121.       0.0000      0.10544    
    0   888   0.25576E-01   39.099      0.15447      0.47358       14997.       0.0000      0.10545    
    0   889   0.25584E-01   39.087      0.15448      0.47862       15059.       0.0000      0.10545    
    0   890   0.25592E-01   39.075      0.15448      0.43893       14485.       0.0000      0.10546    
    0   891   0.25600E-01   39.063      0.15449      0.46109       14810.       0.0000      0.10546    
    0   892   0.25608E-01   39.050      0.15449      0.48292       15099.       0.0000      0.10546    
    0   893   0.25616E-01   39.038      0.15449      0.48311       15096.       0.0000      0.10547    
    0   894   0.25624E-01   39.026      0.15450      0.46893       14903.       0.0000      0.10547    
    0   895   0.25632E-01   39.014      0.15450      0.46030       14778.       0.0000      0.10548    
    0   896   0.25640E-01   39.001      0.15451      0.47970       15037.       0.0000      0.10548    
    0   897   0.25648E-01   38.989      0.15451      0.47143       14922.       0.0000      0.10548    
    0   898   0.25656E-01   38.977      0.15452      0.45946       14750.       0.0000      0.10549    
    0   899   0.25664E-01   38.965      0.15452      0.38016       13383.       0.0000      0.10549    
    0   900   0.25672E-01   38.953      0.15453      0.46030       14752.       0.0000      0.10550    
    0   901   0.25680E-01   38.940      0.15453      0.48272       15050.       0.0000      0.10550    
    0   902   0.25688E-01   38.928      0.15454      0.48261       15043.       0.0000      0.10550    
    0   903   0.25696E-01   38.916      0.15454      0.45535       14666.       0.0000      0.10551    
    0   904   0.25704E-01   38.904      0.15455      0.26986       10142.       0.0000      0.10551    
    0   905   0.25712E-01   38.892      0.15455      0.39708       13692.       0.0000      0.10552    
    0   906   0.25721E-01   38.879      0.15456      0.47662       14944.       0.0000      0.10552    
    0   907   0.25729E-01   38.867      0.15456      0.46475       14778.       0.0000      0.10552    
    0   908   0.25737E-01   38.855      0.15456      0.47284       14883.       0.0000      0.10553    
    0   909   0.25745E-01   38.843      0.15457      0.48226       15002.       0.0000      0.10553    
    0   910   0.25753E-01   38.831      0.15457      0.48188       14991.       0.0000      0.10554    
    0   911   0.25761E-01   38.818      0.15458      0.46039       14697.       0.0000      0.10554    
    0   912   0.25769E-01   38.806      0.15458      0.35518       12772.       0.0000      0.10554    
    0   913   0.25777E-01   38.794      0.15459      0.39340       13584.       0.0000      0.10555    
    0   914   0.25785E-01   38.782      0.15459      0.47003       14814.       0.0000      0.10555    
    0   915   0.25793E-01   38.770      0.15460      0.32993       12117.       0.0000      0.10556    
    0   916   0.25802E-01   38.757      0.15460      0.48182       14959.       0.0000      0.10556    
    0   917   0.25810E-01   38.745      0.15461      0.33572       12264.       0.0000      0.10556    
    0   918   0.25818E-01   38.733      0.15461      0.46855       14774.       0.0000      0.10557    
    0   919   0.25826E-01   38.721      0.15462      0.32860       12064.       0.0000      0.10557    
    0   920   0.25834E-01   38.708      0.15462      0.48119       14930.       0.0000      0.10558    
    0   921   0.25842E-01   38.696      0.15463      0.48172       14932.       0.0000      0.10558    
    0   922   0.25850E-01   38.684      0.15463      0.32916       12067.       0.0000      0.10558    
    0   923   0.25859E-01   38.672      0.15464      0.36294       12903.       0.0000      0.10559    
    0   924   0.25867E-01   38.660      0.15464      0.45555       14562.       0.0000      0.10559    
    0   925   0.25875E-01   38.647      0.15464      0.47856       14870.       0.0000      0.10560    
    0   926   0.25883E-01   38.635      0.15465      0.45965       14610.       0.0000      0.10560    
    0   927   0.25891E-01   38.623      0.15465      0.40186       13677.       0.0000      0.10561    
    0   928   0.25899E-01   38.611      0.15466      0.36318       12886.       0.0000      0.10561    
    0   929   0.25908E-01   38.599      0.15466      0.42264       14030.       0.0000      0.10561    
    0   930   0.25916E-01   38.586      0.15467      0.46541       14669.       0.0000      0.10562    
    0   931   0.25924E-01   38.574      0.15467      0.47895       14844.       0.0000      0.10562    
    0   932   0.25932E-01   38.562      0.15468      0.45114       14457.       0.0000      0.10563    
    0   933   0.25940E-01   38.550      0.15468      0.48031       14851.       0.0000      0.10563    
    0   934   0.25949E-01   38.538      0.15469      0.42399       14028.       0.0000      0.10563    
    0   935   0.25957E-01   38.525      0.15469      0.47740       14803.       0.0000      0.10564    
    0   936   0.25965E-01   38.513      0.15470      0.46097       14577.       0.0000      0.10564    
    0   937   0.25973E-01   38.501      0.15470      0.39291       13462.       0.0000      0.10565    
    0   938   0.25982E-01   38.489      0.15471      0.48017       14823.       0.0000      0.10565    
    0   939   0.25990E-01   38.477      0.15471      0.47842       14795.       0.0000      0.10565    
    0   940   0.25998E-01   38.464      0.15472      0.47716       14773.       0.0000      0.10566    
    0   941   0.26006E-01   38.452      0.15472      0.47674       14763.       0.0000      0.10566    
    0   942   0.26015E-01   38.440      0.15473      0.47709       14762.       0.0000      0.10567    
    0   943   0.26023E-01   38.428      0.15473      0.47790       14767.       0.0000      0.10567    
    0   944   0.26031E-01   38.416      0.15474      0.47884       14774.       0.0000      0.10568    
    0   945   0.26039E-01   38.403      0.15474      0.20218       6356.6       0.0000      0.10568    
    0   946   0.26048E-01   38.391      0.15475      0.46587       14593.       0.0000      0.10568    
    0   947   0.26056E-01   38.379      0.15475      0.46409       14563.       0.0000      0.10569    
    0   948   0.26064E-01   38.367      0.15476      0.46134       14520.       0.0000      0.10569    
    0   949   0.26073E-01   38.354      0.15476      0.45602       14441.       0.0000      0.10570    
    0   950   0.26081E-01   38.342      0.15477      0.44411       14263.       0.0000      0.10570    
    0   951   0.26089E-01   38.330      0.15477      0.41035       13714.       0.0000      0.10570    
    0   952   0.26097E-01   38.318      0.15478      0.27010       9994.9       0.0000      0.10571    
    0   953   0.26106E-01   38.306      0.15478      0.47558       14685.       0.0000      0.10571    
    0   954   0.26114E-01   38.293      0.15479      0.46232       14503.       0.0000      0.10572    
    0   955   0.26122E-01   38.281      0.15479      0.34929       12446.       0.0000      0.10572    
    0   956   0.26131E-01   38.269      0.15480      0.46953       14590.       0.0000      0.10573    
    0   957   0.26139E-01   38.257      0.15480      0.28446       10526.       0.0000      0.10573    
    0   958   0.26147E-01   38.245      0.15481      0.47705       14678.       0.0000      0.10573    
    0   959   0.26156E-01   38.232      0.15481      0.40137       13516.       0.0000      0.10574    
    0   960   0.26164E-01   38.220      0.15482      0.44625       14244.       0.0000      0.10574    
    0   961   0.26173E-01   38.208      0.15482      0.45146       14315.       0.0000      0.10575    
    0   962   0.26181E-01   38.196      0.15483      0.43467       14059.       0.0000      0.10575    
    0   963   0.26189E-01   38.184      0.15483      0.29722       10946.       0.0000      0.10576    
    0   964   0.26198E-01   38.171      0.15484      0.46865       14537.       0.0000      0.10576    
    0   965   0.26206E-01   38.159      0.15484      0.30407       11160.       0.0000      0.10576    
    0   966   0.26214E-01   38.147      0.15485      0.43104       13983.       0.0000      0.10577    
    0   967   0.26223E-01   38.135      0.15485      0.43926       14105.       0.0000      0.10577    
    0   968   0.26231E-01   38.123      0.15486      0.38920       13246.       0.0000      0.10578    
    0   969   0.26240E-01   38.110      0.15486      0.47315       14570.       0.0000      0.10578    
    0   970   0.26248E-01   38.098      0.15487      0.39901       13421.       0.0000      0.10579    
    0   971   0.26256E-01   38.086      0.15487      0.46235       14416.       0.0000      0.10579    
    0   972   0.26265E-01   38.074      0.15488      0.47229       14543.       0.0000      0.10579    
    0   973   0.26273E-01   38.062      0.15488      0.47179       14531.       0.0000      0.10580    
    0   974   0.26282E-01   38.049      0.15489      0.45831       14345.       0.0000      0.10580    
    0   975   0.26290E-01   38.037      0.15489      0.22113       7536.4       0.0000      0.10581    
    0   976   0.26299E-01   38.025      0.15490      0.39091       13241.       0.0000      0.10581    
    0   977   0.26307E-01   38.013      0.15490      0.34072       12142.       0.0000      0.10582    
    0   978   0.26315E-01   38.000      0.15491      0.46906       14469.       0.0000      0.10582    
    0   979   0.26324E-01   37.988      0.15491      0.28222       10368.       0.0000      0.10583    
    0   980   0.26332E-01   37.976      0.15492      0.27990       10279.       0.0000      0.10583    
    0   981   0.26341E-01   37.964      0.15492      0.46771       14436.       0.0000      0.10583    
    0   982   0.26349E-01   37.952      0.15493      0.28083       10307.       0.0000      0.10584    
    0   983   0.26358E-01   37.939      0.15493      0.26469       9674.4       0.0000      0.10584    
    0   984   0.26366E-01   37.927      0.15494      0.36709       12723.       0.0000      0.10585    
    0   985   0.26375E-01   37.915      0.15494      0.47345       14490.       0.0000      0.10585    
    0   986   0.26383E-01   37.903      0.15495      0.42806       13837.       0.0000      0.10586    
    0   987   0.26392E-01   37.891      0.15495      0.43281       13906.       0.0000      0.10586    
    0   988   0.26400E-01   37.878      0.15496      0.22630       7805.5       0.0000      0.10586    
    0   989   0.26409E-01   37.866      0.15496      0.39905       13331.       0.0000      0.10587    
    0   990   0.26417E-01   37.854      0.15497      0.29376       10732.       0.0000      0.10587    
    0   991   0.26426E-01   37.842      0.15497      0.44716       14100.       0.0000      0.10588    
    0   992   0.26434E-01   37.830      0.15498      0.44345       14041.       0.0000      0.10588    
    0   993   0.26443E-01   37.817      0.15498      0.20088       6180.5       0.0000      0.10589    
    0   994   0.26451E-01   37.805      0.15499      0.27672       10113.       0.0000      0.10589    
    0   995   0.26460E-01   37.793      0.15499      0.46750       14360.       0.0000      0.10590    
    0   996   0.26468E-01   37.781      0.15500      0.45887       14239.       0.0000      0.10590    
    0   997   0.26477E-01   37.769      0.15500      0.21351       7021.7       0.0000      0.10590    
    0   998   0.26486E-01   37.756      0.15501      0.46910       14366.       0.0000      0.10591    
    0   999   0.26494E-01   37.744      0.15501      0.39478       13206.       0.0000      0.10591    
    0  1000   0.26503E-01   37.732      0.15502      0.33144       11809.       0.0000      0.10592    
